Folder: Molecular-and-Materials-Modeling-2025/materials-modeling/raman

Note: README.md
# Molecular-and-Materials-Modeling-2025
Working files for https://indico.jinr.ru/event/5419

File: drho_e2
default
      36      36      36      36      36      36       2       1
     0  7.25577  0.00000000  0.00000000  0.00000000  0.00000000  0.00000000
      320.051        8       30    -1
   1   Si    4.00
   1     0.0000000000  0.0000000000  0.0000000000    1
 -0.0150623 -0.181664 -0.33499 -0.451856 -0.510878
  0.127339  0.0722313  0.0334577  0.015501  0.0212106
 -0.0229366 -0.0104094  0.00341191  0.0189723  0.0362805
 -0.0451273 -0.0398313 -0.0304647 -0.0179271 -0.00288746
 -0.0793925 -0.068293 -0.047108 -0.020417  0.00699033
 -0.014064  0.130346  0.273299  0.391281  0.466
  0.0865959  0.249167  0.384289  0.476432  0.518588
 -0.269135 -0.248006 -0.21823 -0.184016 -0.149849
  0.276824  0.205456  0.140834  0.0847602  0.0386555
  0.446306  0.455838  0.414115  0.330245  0.226177
  0.555726  0.397772  0.22313  0.0524134 -0.0984467
  0.0661704 -0.0778108 -0.224499 -0.355017 -0.447752
 -0.0401949 -0.107737 -0.179407 -0.248564 -0.308598
  0.33835  0.37574  0.51493  0.53925  0.539134
  0.279809  0.373949  0.449134  0.486897  0.324633
 -0.610321 -0.485985 -0.320681 -0.129826  0.0694796
 -0.0720114  0.0417048  0.175349  0.30737  0.416263
  0.0881711  0.114588  0.137725  0.154167  0.160509
  0.0306163  0.0500353  0.0701447  0.0910976  0.113058
 -0.00149478  0.0178374  0.0335699  0.0463682  0.0582145
  0.217113  0.169671  0.08067 -0.0430284 -0.192366
  0.696579  0.577986  0.425168  0.25923  0.0984467
 -0.0304646 -0.0106534 -0.00443832 -0.00509492 -0.00719558
 -0.174247 -0.151286 -0.128777 -0.107102 -0.0862871
  0.00817636 -0.0452392 -0.0817602 -0.103078 -0.110842
 -0.360708 -0.413937 -0.422609 -0.385652 -0.308033
 -0.595572 -0.499963 -0.345983 -0.149197  0.071244
 -0.535021 -0.47769 -0.426152 -0.384692 -0.345983
 -0.185536 -0.249728 -0.306593 -0.349163 -0.372565
  0.56463  0.551601  0.531642  0.498455  0.445686
  0.305045  0.441467  0.534238  0.567659  0.531642
  0.418136  0.422796  0.279579  0.15621  0.000463461
  0.13267  0.079301 -0.00129092 -0.109032 -0.288622
  0.0628001  0.0476576  0.0237248 -0.0101184 -0.0545514
  0.121599  0.155278  0.195171  0.241362  0.292322
 -0.28387 -0.362823 -0.422534 -0.449385 -0.434128
 -0.372565 -0.481313 -0.541211 -0.542194 -0.479875
 -0.0325914 -0.0449144 -0.0383174 -0.01535  0.0194685
 -0.0614252 -0.0374703 -0.015526  0.00453916  0.0225619
 -0.090917 -0.0733782 -0.0545441 -0.0350876 -0.015526
 -0.201756 -0.144927 -0.0911596 -0.0483934 -0.0226573
  0.173876  0.348746  0.462978  0.505121  0.473388
  0.131186  0.216664  0.297675  0.348746  0.350621
 -0.685125 -0.593699 -0.494178 -0.400095 -0.318465
 -0.118939 -0.135844 -0.14682 -0.152622 -0.153931
  0.173287  0.0592464 -0.0461911 -0.135844 -0.206311
 -0.334293 -0.481313 -0.611561 -0.707442 -0.751152
 -0.408631 -0.416949 -0.368942 -0.284757 -0.192752
 -0.293214 -0.353974 -0.408631 -0.462978 -0.524721
  0.0393208  0.00846074  0.0321616 -0.00518725 -0.0472933
  0.017242  0.0878703  0.163206  0.234717  0.301759
 -0.350699 -0.212594 -0.0742889  0.043183  0.12315
 -0.0291456  0.0190548  0.0552065  0.0725605  0.0667641
  0.0398286  0.048457  0.0505222  0.0445468  0.0295257
  0.0175252  0.0296643  0.0401244  0.048457  0.0540919
 -0.0405291 -0.0422273 -0.0495002 -0.0602579 -0.0718301
  0.0656959 -0.0345109 -0.148137 -0.265068 -0.376233
  0.314611  0.171412  0.0418369 -0.0616267 -0.135152
 -0.0828158 -0.0762585 -0.0707479 -0.064242 -0.0553725
 -0.179301 -0.149276 -0.122454 -0.0984805 -0.0769026
 -0.190249 -0.188985 -0.179301 -0.162685 -0.141244
 -0.481626 -0.428261 -0.340883 -0.230996 -0.114633
  0.0228275  0.120331  0.221454  0.326079  0.430244
 -2.77556e-17 -0.071244 -0.121186 -0.137511 -0.121524
 -0.392006 -0.422609 -0.433425 -0.425287 -0.401616
  0.0282976  0.0101184 -0.0142258 -0.0424985 -0.0722574
  0.0662199  0.0386555 -0.0122793 -0.079301 -0.154797
 -0.0389027 -0.0770239 -0.125935 -0.172298 -0.208038
  0.0671593  0.072891  0.0876381  0.119477  0.205873
  0.0788953  0.0762585  0.0671593  0.0495148  0.0213004
 -0.00373143 -0.00513515 -0.00684672 -0.00910297 -0.0123826
 -0.289905 -0.301903 -0.294635 -0.267346 -0.2222
 -0.256815 -0.254729 -0.233886 -0.19895 -0.15605
 -0.0553451 -0.0445556 -0.0288448 -0.0104094  0.00889895
 -0.0222984 -0.00648143  0.00876212  0.0235755  0.0380567
 -0.0526431 -0.038872 -0.0263972 -0.0156397 -0.006861
 -0.0570361 -0.0368084 -0.0295257 -0.0355221 -0.0535616
  0.434626  0.388184  0.310179  0.212176  0.107737
  0.414115  0.346532  0.263016  0.176872  0.0996708
 -0.197036 -0.179178 -0.158795 -0.13792 -0.117707
 -0.155692 -0.149401 -0.141147 -0.131215 -0.119847
 -0.160509 -0.182949 -0.197939 -0.203867 -0.199982
 -0.10822 -0.0841877 -0.0417048  0.017242  0.0878703
  0.619516  0.695408  0.729615  0.719581  0.678958
  0.30737  0.273299  0.219765  0.152745  0.0811408
 -0.01535 -0.0444526 -0.0814716 -0.10353 -0.122626
 -0.0714499 -0.0574144 -0.046431 -0.0401693 -0.0378056
 -0.116694 -0.0864424 -0.064242 -0.0523505 -0.0515474
  0.0128071  0.0343248  0.0558119  0.078765  0.105528
  0.102218  0.129577  0.161429  0.198736  0.24209
  0.057121  0.0669672  0.0757178  0.0828997  0.087804
 -0.05354 -0.0622909 -0.0712055 -0.0791274 -0.0849961
 -0.115633 -0.153931 -0.184619 -0.205919 -0.216718
 -0.0632911 -0.0876761 -0.101312 -0.10522 -0.100731
 -0.0461849 -0.0401619 -0.0311951 -0.0199006 -0.00671443
 -0.0493213 -0.0369143 -0.0245637 -0.0122687  0.000000000E+00
 -0.0783446 -0.0695108 -0.059917 -0.0504562 -0.0420295
 -0.0258112 -0.00250793  0.0154432  0.0249621  0.0243591
  0.376941  0.33499  0.286291  0.23149  0.172086
  0.269135  0.196566  0.132198  0.077948  0.0345564
 -0.0648036 -0.078765 -0.0867793 -0.0894637 -0.087804
 -0.050424 -0.0552368 -0.0600407 -0.0643881 -0.0678896
 -0.0445556 -0.0519066 -0.0605581 -0.0689571 -0.0754913
  0.083827  0.104267  0.191002  0.223921  0.255064
  0.342213  0.397551  0.451278  0.497499  0.51493
  0.20893  0.214561  0.21316  0.20355  0.185364
  0.00375606  0.00037757 -0.00341191 -0.00758003 -0.0120712
 -0.114845 -0.104378 -0.0918317 -0.0782064 -0.0646322
 -0.0885035 -0.0701372 -0.0516409 -0.0335189 -0.0162156
  0.0128693  0.0317319  0.0518235  0.0733782  0.0967778
  0.0620893  0.0777563  0.094054  0.110918  0.128175
  0.0183086  0.0231096  0.0268846  0.0295451  0.0311227
 -0.0716379 -0.0792064 -0.0868417 -0.0939069 -0.0998114
 -0.132164 -0.14682 -0.157086 -0.163156 -0.165192
 -0.13267 -0.125392 -0.115043 -0.102685 -0.088886
 -0.0322558 -0.0287065 -0.0231595 -0.0158317 -0.006861
 -0.0133563 -0.0124748 -0.0104899 -0.00729272 -0.00289894
 -0.0158039 -0.0193751 -0.0232427 -0.0275094 -0.0322558
  0.0278168  0.0109493 -0.0117319 -0.0393208 -0.0699758
  0.0565099 -0.000941768 -0.0628026 -0.122457 -0.173297
  0.0862058  0.0602247  0.0357914  0.014537 -0.00251399
  0.0374883  0.0322558  0.0227009  0.0199646  0.0172701
 -0.00253884  0.00289894  0.00729272  0.0104899  0.01307
 -0.00366244  0.006861  0.0158317  0.0231595  0.0287065
  0.0792064  0.0872676  0.0920592  0.092998  0.0891933
  0.163277  0.165192  0.163156  0.157086  0.14682
  0.104065  0.0998114  0.0939069  0.0868417  0.0792064
 -0.0317319 -0.0311227 -0.0295451 -0.0268846 -0.0231096
 -0.145566 -0.128175 -0.110918 -0.094054 -0.0777563
 -0.104497 -0.0781461 -0.0545441 -0.0330586 -0.0133129
  0.0189723  0.0362805  0.0549285  0.0742374  0.0933886
  0.0522435  0.0646322  0.0782064  0.0918317  0.104378
  0.0167932  0.0120712  0.00758003  0.00341191 -0.00037757
 -0.159261 -0.185364 -0.20355 -0.21316 -0.214561
 -0.639736 -0.601378 -0.542447 -0.472967 -0.401616
 -0.184016 -0.149849 -0.119046 -0.0930751 -0.0718301
  0.0842123  0.0781477  0.0696676  0.0601977  0.0512425
  0.0691005  0.0678896  0.0655343  0.0622059  0.0581147
  0.0844541  0.0870976  0.085328  0.077892  0.0637904
 -0.00177461 -0.0345564 -0.247244 -0.320882 -0.399033
 -0.248564 -0.317868 -0.375639 -0.419892 -0.403666
 -0.0135479 -0.0243591 -0.0249621 -0.0154432  0.00250793
  0.0354248  0.0420295  0.0504562  0.059917  0.0695108
 -0.0122687  0.000000000E+00  0.0122687  0.0245637  0.0369143
 -0.00813534  0.00671443  0.0199006  0.0311951  0.0401619
  0.111273  0.117313  0.113526  0.0981064  0.069724
  0.216625  0.216718  0.205919  0.184619  0.153931
  0.0880161  0.0849961  0.0791274  0.0712055  0.0622909
 -0.0894637 -0.087804 -0.0828997 -0.0757178 -0.0669672
 -0.291347 -0.24209 -0.198736 -0.161429 -0.129577
 -0.08371 -0.0637904 -0.0470446 -0.0306008 -0.0124807
  0.0611707  0.0515474  0.0523505  0.064242  0.0864424
  0.0448923  0.0395989  0.0401693  0.046431  0.0574144
  0.150792  0.130191  0.104267  0.0748966  0.0444526
 -0.143907 -0.221391 -0.29703 -0.359596 -0.399831
 -0.554314 -0.566401 -0.557019 -0.512225 -0.434128
  0.0742889  0.148607  0.202336  0.231897  0.237715
  0.186552  0.199982  0.183375  0.175051  0.159585
  0.107339  0.119847  0.131215  0.141147  0.164395
  0.0985969  0.117707  0.13792  0.158795  0.179178
 -0.0892808 -0.171003 -0.263016 -0.351776 -0.420196
 -0.0592464 -0.173287 -0.283952 -0.375958 -0.434626
  0.0811792  0.0535616  0.0355221  0.0295257  0.0368084
  0.000133247  0.006861  0.0156397  0.0263972  0.038872
 -0.0522435 -0.0380567 -0.0235755 -0.00876212  0.00648143
 -0.0172476  0.00229583  0.0229366  0.0421365  0.0570881
  0.144927  0.201756  0.252877  0.289905  0.306137
  0.164471  0.2222  0.267346  0.294635  0.301903
  0.0172551  0.0123826  0.00910297  0.00684672  0.00513515
  0.0190341 -0.0213004 -0.0495148 -0.0671593 -0.0762585
 -0.249167 -0.174381 -0.119477 -0.0876381 -0.072891
  0.362823  0.28387  0.199821  0.122135  0.0586612
  0.169839  0.0982034  0.0297821 -0.0282976 -0.0686832
  0.115633  0.0948002  0.0725586  0.0503695  0.0297821
  0.415984  0.455396  0.480435  0.485138  0.466
  0.0865959  0.121524 -0.00477244 -0.0228275 -0.0694796
 -0.442123 -0.326079 -0.20044 -0.0710469  0.204242
  0.00908318  0.114633  0.230996  0.340883  0.428261
  0.117425  0.141244  0.162685  0.179301  0.188985
  0.0572691  0.0769026  0.0984805  0.122454  0.149276
  0.0434576  0.0553725  0.064242  0.0707479  0.0762585
  0.193769  0.130519  0.0345109 -0.0915885 -0.23852
  0.472228  0.376233  0.265068  0.148137  0.0345109
  0.0809206  0.0718301  0.0602579  0.0495002  0.0422273
 -0.056374 -0.0540919 -0.048457 -0.0401244 -0.0296643
 -0.00462205 -0.0295257 -0.0445468 -0.0505222 -0.048457
 -0.0251993